SpectraSuite Data File
++++++++++++++++++++++++++++++++++++
Date: Fri May 31 11:24:14 EEST 2013
User: OO Maya
Dark Spectrum Present: No
Reference Spectrum Present: No
Number of Sampled Component Spectra: 1
Spectrometers: MAYP11278
Integration Time (usec): 2500000 (MAYP11278)
Spectra Averaged: 1 (MAYP11278)
Boxcar Smoothing: 0 (MAYP11278)
Correct for Electrical Dark: No (MAYP11278)
Strobe/Lamp Enabled: No (MAYP11278)
Correct for Detector Non-linearity: No (MAYP11278)
Correct for Stray Light: No (MAYP11278)
Number of Pixels in Processed Spectrum: 2068
>>>>>Begin Processed Spectral Data<<<<<
188,05	2308,00
188,53	2217,00
189,01	2185,00
189,49	2188,00
189,96	8250,00
190,44	9652,00
190,92	11075,00
191,40	11556,00
191,88	11798,00
192,36	11509,00
192,83	11310,00
193,31	11164,00
193,79	11489,00
194,27	11438,00
194,75	11643,00
195,23	11442,00
195,70	11744,00
196,18	11451,00
196,66	11475,00
197,14	12211,00
197,62	11557,00
198,09	11306,00
198,57	11428,00
199,05	11287,00
199,53	11730,00
200,01	11795,00
200,48	11525,00
200,96	11491,00
201,44	11788,00
201,92	11674,00
202,39	11580,00
202,87	11413,00
203,35	11617,00
203,83	11362,00
204,31	11899,00
204,78	12029,00
205,26	11484,00
205,74	11496,00
206,22	12090,00
206,69	11679,00
207,17	11771,00
207,65	12509,00
208,13	11844,00
208,60	11963,00
209,08	11751,00
209,56	12011,00
210,04	11972,00
210,51	11734,00
210,99	11708,00
211,47	11867,00
211,94	11852,00
212,42	11614,00
212,90	12239,00
213,38	12012,00
213,85	11691,00
214,33	12226,00
214,81	12073,00
215,29	12400,00
215,76	12034,00
216,24	12125,00
216,72	12066,00
217,19	12152,00
217,67	11806,00
218,15	11910,00
218,62	12196,00
219,10	11541,00
219,58	11726,00
220,05	11852,00
220,53	11864,00
221,01	12242,00
221,49	11792,00
221,96	12244,00
222,44	11753,00
222,92	12120,00
223,39	11863,00
223,87	12062,00
224,35	11965,00
224,82	11873,00
225,30	11684,00
225,78	11851,00
226,25	11865,00
226,73	11855,00
227,21	12295,00
227,68	11954,00
228,16	12184,00
228,63	12243,00
229,11	12094,00
229,59	12054,00
230,06	12129,00
230,54	12036,00
231,02	12317,00
231,49	12279,00
231,97	12080,00
232,45	12158,00
232,92	11924,00
233,40	12172,00
233,87	12337,00
234,35	13178,00
234,83	12338,00
235,30	12120,00
235,78	12161,00
236,25	12025,00
236,73	12655,00
237,21	12811,00
237,68	12209,00
238,16	12352,00
238,63	12414,00
239,11	12315,00
239,59	12365,00
240,06	12093,00
240,54	12546,00
241,01	12623,00
241,49	12496,00
241,96	12297,00
242,44	12691,00
242,92	12750,00
243,39	12069,00
243,87	12289,00
244,34	12758,00
244,82	12851,00
245,29	12420,00
245,77	12885,00
246,24	12838,00
246,72	12342,00
247,20	12612,00
247,67	12534,00
248,15	12644,00
248,62	12640,00
249,10	12310,00
249,57	12582,00
250,05	12733,00
250,52	12706,00
251,00	13028,00
251,47	12640,00
251,95	13136,00
252,42	13017,00
252,90	12460,00
253,37	12933,00
253,85	12623,00
254,32	12586,00
254,80	12673,00
255,27	12829,00
255,75	12896,00
256,22	12510,00
256,70	12727,00
257,17	12805,00
257,65	13104,00
258,12	13582,00
258,60	12721,00
259,07	12535,00
259,55	12542,00
260,02	12288,00
260,50	12809,00
260,97	12258,00
261,45	12392,00
261,92	12883,00
262,40	12662,00
262,87	12656,00
263,35	12677,00
263,82	12248,00
264,30	12764,00
264,77	12881,00
265,25	12543,00
265,72	12831,00
266,19	12707,00
266,67	13030,00
267,14	12819,00
267,62	12774,00
268,09	12681,00
268,57	12624,00
269,04	11939,00
269,51	12046,00
269,99	12018,00
270,46	12290,00
270,94	12428,00
271,41	12222,00
271,89	12485,00
272,36	12362,00
272,83	12579,00
273,31	12466,00
273,78	12843,00
274,26	13394,00
274,73	12461,00
275,20	12380,00
275,68	12062,00
276,15	12160,00
276,63	12377,00
277,10	12179,00
277,57	11417,00
278,05	11263,00
278,52	10707,00
279,00	11840,00
279,47	10717,00
279,94	11249,00
280,42	13880,00
280,89	15299,00
281,36	16908,00
281,84	15180,00
282,31	14620,00
282,78	13846,00
283,26	13557,00
283,73	13426,00
284,21	12928,00
284,68	12864,00
285,15	13371,00
285,63	13136,00
286,10	13086,00
286,57	13163,00
287,05	12774,00
287,52	13104,00
287,99	13260,00
288,47	12824,00
288,94	13056,00
289,41	12376,00
289,89	13212,00
290,36	12536,00
290,83	12910,00
291,30	12679,00
291,78	12868,00
292,25	13490,00
292,72	12698,00
293,20	13198,00
293,67	12779,00
294,14	13050,00
294,62	13181,00
295,09	12759,00
295,56	13072,00
296,03	13145,00
296,51	13576,00
296,98	13454,00
297,45	13257,00
297,93	13141,00
298,40	13184,00
298,87	12865,00
299,34	13362,00
299,82	12889,00
300,29	13095,00
300,76	12794,00
301,23	13187,00
301,71	13130,00
302,18	13132,00
302,65	12736,00
303,12	13151,00
303,60	13294,00
304,07	12859,00
304,54	12929,00
305,01	12773,00
305,49	12906,00
305,96	12998,00
306,43	13022,00
306,90	12999,00
307,38	12753,00
307,85	12764,00
308,32	12898,00
308,79	12782,00
309,27	13263,00
309,74	13138,00
310,21	13006,00
310,68	13049,00
311,15	13161,00
311,63	12938,00
312,10	13172,00
312,57	13003,00
313,04	13529,00
313,51	12874,00
313,99	12984,00
314,46	13196,00
314,93	12942,00
315,40	12890,00
315,87	13300,00
316,34	13226,00
316,82	13211,00
317,29	13245,00
317,76	13239,00
318,23	14006,00
318,70	13012,00
319,17	13065,00
319,65	12817,00
320,12	13374,00
320,59	13637,00
321,06	13404,00
321,53	13181,00
322,00	12721,00
322,48	13011,00
322,95	13634,00
323,42	13096,00
323,89	13845,00
324,36	12874,00
324,83	13270,00
325,30	13069,00
325,78	13082,00
326,25	13281,00
326,72	13357,00
327,19	13624,00
327,66	13658,00
328,13	13692,00
328,60	13473,00
329,07	13386,00
329,54	13306,00
330,02	13360,00
330,49	13314,00
330,96	13738,00
331,43	13606,00
331,90	13938,00
332,37	13224,00
332,84	14055,00
333,31	13780,00
333,78	13598,00
334,25	13916,00
334,72	13608,00
335,20	13788,00
335,67	14533,00
336,14	13165,00
336,61	13513,00
337,08	13304,00
337,55	13506,00
338,02	13223,00
338,49	13362,00
338,96	13775,00
339,43	13460,00
339,90	13024,00
340,37	13069,00
340,84	12937,00
341,31	13288,00
341,78	13442,00
342,25	13102,00
342,72	13188,00
343,19	13378,00
343,67	13247,00
344,14	13156,00
344,61	13164,00
345,08	13074,00
345,55	13237,00
346,02	13432,00
346,49	13035,00
346,96	13072,00
347,43	13749,00
347,90	13147,00
348,37	13596,00
348,84	13360,00
349,31	13000,00
349,78	13482,00
350,25	13719,00
350,72	13539,00
351,19	13229,00
351,66	13470,00
352,13	13935,00
352,60	13532,00
353,07	13397,00
353,54	13389,00
354,01	13585,00
354,48	13448,00
354,94	13617,00
355,41	13408,00
355,88	13982,00
356,35	13430,00
356,82	13951,00
357,29	13346,00
357,76	14304,00
358,23	13738,00
358,70	13402,00
359,17	13461,00
359,64	13514,00
360,11	13691,00
360,58	14087,00
361,05	14128,00
361,52	13785,00
361,99	13730,00
362,46	13764,00
362,93	13848,00
363,39	13792,00
363,86	14368,00
364,33	14000,00
364,80	13540,00
365,27	14031,00
365,74	13778,00
366,21	13525,00
366,68	13879,00
367,15	13934,00
367,62	18968,00
368,09	13462,00
368,55	13784,00
369,02	14375,00
369,49	13629,00
369,96	14224,00
370,43	14109,00
370,90	13906,00
371,37	13948,00
371,84	14326,00
372,31	13910,00
372,77	13662,00
373,24	13885,00
373,71	14278,00
374,18	13991,00
374,65	14003,00
375,12	14340,00
375,59	13868,00
376,05	14751,00
376,52	14185,00
376,99	14015,00
377,46	13986,00
377,93	14349,00
378,40	14415,00
378,86	14420,00
379,33	14418,00
379,80	14354,00
380,27	14533,00
380,74	14777,00
381,21	14515,00
381,67	14781,00
382,14	14801,00
382,61	14184,00
383,08	14624,00
383,55	14563,00
384,02	14985,00
384,48	14884,00
384,95	16350,00
385,42	15085,00
385,89	15083,00
386,36	15433,00
386,82	16190,00
387,29	15897,00
387,76	16191,00
388,23	17401,00
388,69	17860,00
389,16	19258,00
389,63	20015,00
390,10	21380,00
390,57	22846,00
391,03	24340,00
391,50	24723,00
391,97	24948,00
392,44	25019,00
392,90	25140,00
393,37	28162,00
393,84	34676,00
394,31	39174,00
394,77	43209,00
395,24	44604,00
395,71	44446,00
396,18	43746,00
396,64	44624,00
397,11	56124,00
397,58	64000,00
398,05	64000,00
398,51	64000,00
398,98	64000,00
399,45	64000,00
399,92	64000,00
400,38	64000,00
400,85	64000,00
401,32	64000,00
401,78	64000,00
402,25	64000,00
402,72	64000,00
403,18	64000,00
403,65	64000,00
404,12	64000,00
404,59	64000,00
405,05	64000,00
405,52	64000,00
405,99	64000,00
406,45	64000,00
406,92	64000,00
407,39	64000,00
407,85	64000,00
408,32	64000,00
408,79	64000,00
409,25	64000,00
409,72	64000,00
410,19	64000,00
410,65	64000,00
411,12	64000,00
411,59	64000,00
412,05	64000,00
412,52	64000,00
412,99	64000,00
413,45	64000,00
413,92	64000,00
414,39	64000,00
414,85	64000,00
415,32	64000,00
415,78	64000,00
416,25	64000,00
416,72	64000,00
417,18	64000,00
417,65	64000,00
418,12	64000,00
418,58	64000,00
419,05	64000,00
419,51	64000,00
419,98	64000,00
420,45	64000,00
420,91	64000,00
421,38	64000,00
421,84	64000,00
422,31	64000,00
422,78	64000,00
423,24	64000,00
423,71	64000,00
424,17	64000,00
424,64	64000,00
425,11	64000,00
425,57	64000,00
426,04	64000,00
426,50	64000,00
426,97	64000,00
427,43	64000,00
427,90	64000,00
428,37	64000,00
428,83	64000,00
429,30	64000,00
429,76	64000,00
430,23	64000,00
430,69	64000,00
431,16	64000,00
431,62	64000,00
432,09	64000,00
432,55	64000,00
433,02	64000,00
433,48	64000,00
433,95	64000,00
434,42	64000,00
434,88	64000,00
435,35	64000,00
435,81	64000,00
436,28	64000,00
436,74	64000,00
437,21	64000,00
437,67	64000,00
438,14	64000,00
438,60	64000,00
439,07	64000,00
439,53	64000,00
440,00	64000,00
440,46	64000,00
440,93	64000,00
441,39	64000,00
441,86	64000,00
442,32	64000,00
442,79	64000,00
443,25	64000,00
443,72	64000,00
444,18	64000,00
444,64	64000,00
445,11	64000,00
445,57	64000,00
446,04	64000,00
446,50	64000,00
446,97	64000,00
447,43	64000,00
447,90	64000,00
448,36	64000,00
448,83	64000,00
449,29	64000,00
449,75	64000,00
450,22	64000,00
450,68	64000,00
451,15	64000,00
451,61	64000,00
452,08	64000,00
452,54	64000,00
453,00	64000,00
453,47	64000,00
453,93	64000,00
454,40	64000,00
454,86	64000,00
455,32	64000,00
455,79	64000,00
456,25	64000,00
456,72	64000,00
457,18	64000,00
457,64	64000,00
458,11	64000,00
458,57	64000,00
459,04	64000,00
459,50	64000,00
459,96	64000,00
460,43	64000,00
460,89	64000,00
461,36	64000,00
461,82	64000,00
462,28	64000,00
462,75	64000,00
463,21	64000,00
463,67	64000,00
464,14	64000,00
464,60	64000,00
465,06	64000,00
465,53	64000,00
465,99	64000,00
466,45	64000,00
466,92	64000,00
467,38	64000,00
467,84	64000,00
468,31	64000,00
468,77	64000,00
469,23	64000,00
469,70	64000,00
470,16	64000,00
470,62	64000,00
471,09	64000,00
471,55	64000,00
472,01	64000,00
472,48	64000,00
472,94	64000,00
473,40	64000,00
473,87	64000,00
474,33	64000,00
474,79	64000,00
475,25	64000,00
475,72	64000,00
476,18	64000,00
476,64	64000,00
477,11	64000,00
477,57	64000,00
478,03	64000,00
478,49	64000,00
478,96	64000,00
479,42	64000,00
479,88	64000,00
480,35	64000,00
480,81	64000,00
481,27	64000,00
481,73	64000,00
482,20	64000,00
482,66	64000,00
483,12	64000,00
483,58	64000,00
484,05	64000,00
484,51	64000,00
484,97	64000,00
485,43	64000,00
485,89	64000,00
486,36	64000,00
486,82	64000,00
487,28	64000,00
487,74	64000,00
488,21	64000,00
488,67	64000,00
489,13	64000,00
489,59	64000,00
490,05	64000,00
490,52	64000,00
490,98	64000,00
491,44	64000,00
491,90	64000,00
492,36	64000,00
492,83	64000,00
493,29	64000,00
493,75	64000,00
494,21	64000,00
494,67	64000,00
495,14	64000,00
495,60	64000,00
496,06	64000,00
496,52	64000,00
496,98	64000,00
497,44	64000,00
497,91	64000,00
498,37	64000,00
498,83	64000,00
499,29	64000,00
499,75	64000,00
500,21	64000,00
500,67	64000,00
501,14	64000,00
501,60	64000,00
502,06	64000,00
502,52	64000,00
502,98	64000,00
503,44	64000,00
503,90	64000,00
504,37	64000,00
504,83	64000,00
505,29	64000,00
505,75	64000,00
506,21	64000,00
506,67	64000,00
507,13	64000,00
507,59	64000,00
508,05	64000,00
508,51	64000,00
508,98	64000,00
509,44	64000,00
509,90	64000,00
510,36	64000,00
510,82	64000,00
511,28	64000,00
511,74	64000,00
512,20	64000,00
512,66	64000,00
513,12	64000,00
513,58	64000,00
514,04	64000,00
514,51	64000,00
514,97	64000,00
515,43	64000,00
515,89	64000,00
516,35	64000,00
516,81	64000,00
517,27	64000,00
517,73	64000,00
518,19	64000,00
518,65	64000,00
519,11	64000,00
519,57	64000,00
520,03	64000,00
520,49	64000,00
520,95	64000,00
521,41	64000,00
521,87	64000,00
522,33	64000,00
522,79	64000,00
523,25	64000,00
523,71	64000,00
524,17	64000,00
524,63	64000,00
525,09	64000,00
525,55	64000,00
526,01	64000,00
526,47	64000,00
526,93	64000,00
527,39	64000,00
527,85	64000,00
528,31	64000,00
528,77	64000,00
529,23	64000,00
529,69	64000,00
530,15	64000,00
530,61	64000,00
531,07	64000,00
531,53	64000,00
531,99	64000,00
532,45	64000,00
532,91	64000,00
533,37	64000,00
533,83	64000,00
534,29	64000,00
534,75	64000,00
535,21	64000,00
535,67	64000,00
536,12	64000,00
536,58	64000,00
537,04	64000,00
537,50	64000,00
537,96	64000,00
538,42	64000,00
538,88	64000,00
539,34	64000,00
539,80	64000,00
540,26	64000,00
540,72	64000,00
541,18	64000,00
541,63	64000,00
542,09	64000,00
542,55	64000,00
543,01	64000,00
543,47	64000,00
543,93	64000,00
544,39	64000,00
544,85	64000,00
545,31	64000,00
545,76	64000,00
546,22	64000,00
546,68	64000,00
547,14	64000,00
547,60	64000,00
548,06	64000,00
548,52	64000,00
548,98	64000,00
549,43	64000,00
549,89	64000,00
550,35	64000,00
550,81	64000,00
551,27	64000,00
551,73	64000,00
552,19	64000,00
552,64	64000,00
553,10	64000,00
553,56	64000,00
554,02	64000,00
554,48	64000,00
554,93	64000,00
555,39	64000,00
555,85	64000,00
556,31	64000,00
556,77	64000,00
557,23	64000,00
557,68	64000,00
558,14	64000,00
558,60	64000,00
559,06	64000,00
559,52	64000,00
559,97	64000,00
560,43	64000,00
560,89	64000,00
561,35	64000,00
561,81	64000,00
562,26	64000,00
562,72	64000,00
563,18	64000,00
563,64	64000,00
564,09	64000,00
564,55	64000,00
565,01	64000,00
565,47	64000,00
565,92	64000,00
566,38	64000,00
566,84	64000,00
567,30	64000,00
567,75	64000,00
568,21	64000,00
568,67	64000,00
569,13	64000,00
569,58	64000,00
570,04	64000,00
570,50	64000,00
570,96	64000,00
571,41	64000,00
571,87	64000,00
572,33	64000,00
572,78	64000,00
573,24	64000,00
573,70	64000,00
574,16	64000,00
574,61	64000,00
575,07	64000,00
575,53	64000,00
575,98	64000,00
576,44	64000,00
576,90	64000,00
577,36	64000,00
577,81	64000,00
578,27	64000,00
578,73	64000,00
579,18	64000,00
579,64	64000,00
580,10	64000,00
580,55	64000,00
581,01	64000,00
581,47	64000,00
581,92	64000,00
582,38	64000,00
582,84	64000,00
583,29	64000,00
583,75	64000,00
584,21	64000,00
584,66	64000,00
585,12	64000,00
585,57	64000,00
586,03	64000,00
586,49	64000,00
586,94	64000,00
587,40	64000,00
587,86	64000,00
588,31	64000,00
588,77	64000,00
589,22	64000,00
589,68	64000,00
590,14	64000,00
590,59	64000,00
591,05	64000,00
591,51	64000,00
591,96	64000,00
592,42	64000,00
592,87	64000,00
593,33	64000,00
593,78	64000,00
594,24	64000,00
594,70	64000,00
595,15	64000,00
595,61	64000,00
596,06	64000,00
596,52	64000,00
596,98	64000,00
597,43	64000,00
597,89	64000,00
598,34	64000,00
598,80	64000,00
599,25	64000,00
599,71	64000,00
600,16	64000,00
600,62	64000,00
601,08	64000,00
601,53	64000,00
601,99	64000,00
602,44	64000,00
602,90	64000,00
603,35	64000,00
603,81	64000,00
604,26	64000,00
604,72	64000,00
605,17	64000,00
605,63	64000,00
606,08	64000,00
606,54	64000,00
606,99	64000,00
607,45	64000,00
607,90	64000,00
608,36	64000,00
608,81	64000,00
609,27	64000,00
609,72	64000,00
610,18	64000,00
610,63	64000,00
611,09	64000,00
611,54	64000,00
612,00	64000,00
612,45	64000,00
612,91	64000,00
613,36	64000,00
613,82	64000,00
614,27	64000,00
614,73	64000,00
615,18	64000,00
615,64	64000,00
616,09	64000,00
616,54	64000,00
617,00	64000,00
617,45	64000,00
617,91	64000,00
618,36	64000,00
618,82	64000,00
619,27	64000,00
619,72	64000,00
620,18	64000,00
620,63	64000,00
621,09	64000,00
621,54	64000,00
622,00	64000,00
622,45	64000,00
622,90	64000,00
623,36	64000,00
623,81	64000,00
624,27	64000,00
624,72	64000,00
625,17	64000,00
625,63	64000,00
626,08	64000,00
626,54	64000,00
626,99	64000,00
627,44	64000,00
627,90	64000,00
628,35	64000,00
628,81	64000,00
629,26	64000,00
629,71	64000,00
630,17	64000,00
630,62	64000,00
631,07	64000,00
631,53	64000,00
631,98	64000,00
632,43	64000,00
632,89	64000,00
633,34	64000,00
633,79	64000,00
634,25	64000,00
634,70	64000,00
635,15	64000,00
635,61	64000,00
636,06	64000,00
636,51	64000,00
636,97	64000,00
637,42	64000,00
637,87	64000,00
638,33	64000,00
638,78	64000,00
639,23	64000,00
639,69	64000,00
640,14	64000,00
640,59	64000,00
641,05	64000,00
641,50	64000,00
641,95	64000,00
642,40	64000,00
642,86	64000,00
643,31	64000,00
643,76	64000,00
644,22	64000,00
644,67	64000,00
645,12	64000,00
645,57	64000,00
646,03	64000,00
646,48	64000,00
646,93	64000,00
647,38	64000,00
647,84	64000,00
648,29	64000,00
648,74	64000,00
649,19	64000,00
649,65	64000,00
650,10	64000,00
650,55	64000,00
651,00	64000,00
651,46	64000,00
651,91	64000,00
652,36	64000,00
652,81	64000,00
653,27	64000,00
653,72	64000,00
654,17	64000,00
654,62	64000,00
655,07	64000,00
655,53	64000,00
655,98	64000,00
656,43	64000,00
656,88	64000,00
657,33	64000,00
657,79	64000,00
658,24	64000,00
658,69	64000,00
659,14	64000,00
659,59	64000,00
660,05	64000,00
660,50	64000,00
660,95	64000,00
661,40	64000,00
661,85	64000,00
662,30	64000,00
662,76	64000,00
663,21	64000,00
663,66	64000,00
664,11	64000,00
664,56	64000,00
665,01	64000,00
665,47	64000,00
665,92	64000,00
666,37	64000,00
666,82	64000,00
667,27	64000,00
667,72	64000,00
668,17	64000,00
668,62	64000,00
669,08	64000,00
669,53	64000,00
669,98	64000,00
670,43	64000,00
670,88	64000,00
671,33	64000,00
671,78	64000,00
672,23	64000,00
672,69	64000,00
673,14	64000,00
673,59	64000,00
674,04	64000,00
674,49	64000,00
674,94	64000,00
675,39	64000,00
675,84	64000,00
676,29	64000,00
676,74	64000,00
677,19	64000,00
677,64	64000,00
678,10	64000,00
678,55	64000,00
679,00	64000,00
679,45	64000,00
679,90	64000,00
680,35	64000,00
680,80	64000,00
681,25	64000,00
681,70	64000,00
682,15	64000,00
682,60	64000,00
683,05	64000,00
683,50	64000,00
683,95	64000,00
684,40	64000,00
684,85	64000,00
685,30	64000,00
685,75	64000,00
686,20	64000,00
686,65	64000,00
687,10	64000,00
687,55	64000,00
688,00	64000,00
688,45	64000,00
688,90	64000,00
689,35	64000,00
689,80	64000,00
690,25	64000,00
690,70	64000,00
691,15	64000,00
691,60	64000,00
692,05	64000,00
692,50	64000,00
692,95	64000,00
693,40	64000,00
693,85	64000,00
694,30	64000,00
694,75	64000,00
695,20	64000,00
695,65	64000,00
696,10	64000,00
696,55	64000,00
697,00	64000,00
697,45	64000,00
697,90	64000,00
698,35	64000,00
698,80	64000,00
699,24	64000,00
699,69	64000,00
700,14	64000,00
700,59	64000,00
701,04	64000,00
701,49	64000,00
701,94	64000,00
702,39	64000,00
702,84	64000,00
703,29	64000,00
703,74	64000,00
704,19	64000,00
704,63	64000,00
705,08	64000,00
705,53	64000,00
705,98	64000,00
706,43	64000,00
706,88	64000,00
707,33	64000,00
707,78	64000,00
708,22	64000,00
708,67	64000,00
709,12	64000,00
709,57	64000,00
710,02	64000,00
710,47	64000,00
710,92	64000,00
711,37	64000,00
711,81	64000,00
712,26	64000,00
712,71	64000,00
713,16	64000,00
713,61	64000,00
714,06	64000,00
714,50	64000,00
714,95	64000,00
715,40	64000,00
715,85	64000,00
716,30	64000,00
716,75	64000,00
717,19	64000,00
717,64	64000,00
718,09	64000,00
718,54	64000,00
718,99	64000,00
719,43	64000,00
719,88	64000,00
720,33	64000,00
720,78	64000,00
721,23	64000,00
721,67	64000,00
722,12	64000,00
722,57	64000,00
723,02	64000,00
723,47	64000,00
723,91	64000,00
724,36	64000,00
724,81	64000,00
725,26	64000,00
725,70	64000,00
726,15	64000,00
726,60	64000,00
727,05	64000,00
727,49	64000,00
727,94	64000,00
728,39	64000,00
728,84	64000,00
729,28	64000,00
729,73	64000,00
730,18	64000,00
730,63	64000,00
731,07	64000,00
731,52	64000,00
731,97	64000,00
732,41	64000,00
732,86	64000,00
733,31	64000,00
733,76	64000,00
734,20	64000,00
734,65	64000,00
735,10	64000,00
735,54	64000,00
735,99	64000,00
736,44	64000,00
736,89	64000,00
737,33	64000,00
737,78	64000,00
738,23	64000,00
738,67	64000,00
739,12	64000,00
739,57	64000,00
740,01	64000,00
740,46	64000,00
740,91	64000,00
741,35	64000,00
741,80	64000,00
742,25	64000,00
742,69	64000,00
743,14	64000,00
743,59	64000,00
744,03	64000,00
744,48	64000,00
744,92	64000,00
745,37	64000,00
745,82	64000,00
746,26	64000,00
746,71	64000,00
747,16	64000,00
747,60	64000,00
748,05	64000,00
748,49	64000,00
748,94	64000,00
749,39	64000,00
749,83	64000,00
750,28	64000,00
750,73	64000,00
751,17	64000,00
751,62	64000,00
752,06	64000,00
752,51	64000,00
752,95	64000,00
753,40	64000,00
753,85	64000,00
754,29	64000,00
754,74	64000,00
755,18	64000,00
755,63	64000,00
756,07	64000,00
756,52	64000,00
756,97	64000,00
757,41	64000,00
757,86	64000,00
758,30	64000,00
758,75	64000,00
759,19	64000,00
759,64	64000,00
760,08	64000,00
760,53	64000,00
760,98	64000,00
761,42	64000,00
761,87	64000,00
762,31	64000,00
762,76	64000,00
763,20	64000,00
763,65	64000,00
764,09	64000,00
764,54	64000,00
764,98	64000,00
765,43	64000,00
765,87	64000,00
766,32	64000,00
766,76	64000,00
767,21	64000,00
767,65	64000,00
768,10	64000,00
768,54	64000,00
768,99	64000,00
769,43	64000,00
769,88	64000,00
770,32	64000,00
770,77	64000,00
771,21	64000,00
771,65	64000,00
772,10	64000,00
772,54	64000,00
772,99	64000,00
773,43	64000,00
773,88	64000,00
774,32	64000,00
774,77	64000,00
775,21	64000,00
775,65	64000,00
776,10	64000,00
776,54	64000,00
776,99	64000,00
777,43	64000,00
777,88	64000,00
778,32	64000,00
778,76	64000,00
779,21	64000,00
779,65	64000,00
780,10	64000,00
780,54	64000,00
780,99	64000,00
781,43	64000,00
781,87	64000,00
782,32	64000,00
782,76	64000,00
783,20	64000,00
783,65	64000,00
784,09	64000,00
784,54	64000,00
784,98	64000,00
785,42	64000,00
785,87	64000,00
786,31	64000,00
786,75	64000,00
787,20	64000,00
787,64	64000,00
788,09	64000,00
788,53	64000,00
788,97	64000,00
789,42	64000,00
789,86	64000,00
790,30	64000,00
790,75	64000,00
791,19	64000,00
791,63	64000,00
792,08	64000,00
792,52	64000,00
792,96	64000,00
793,41	64000,00
793,85	64000,00
794,29	64000,00
794,74	64000,00
795,18	64000,00
795,62	64000,00
796,06	64000,00
796,51	64000,00
796,95	64000,00
797,39	64000,00
797,84	64000,00
798,28	64000,00
798,72	64000,00
799,16	64000,00
799,61	64000,00
800,05	64000,00
800,49	64000,00
800,94	64000,00
801,38	64000,00
801,82	64000,00
802,26	64000,00
802,71	64000,00
803,15	64000,00
803,59	64000,00
804,03	64000,00
804,48	64000,00
804,92	64000,00
805,36	64000,00
805,80	64000,00
806,25	64000,00
806,69	64000,00
807,13	64000,00
807,57	64000,00
808,01	64000,00
808,46	64000,00
808,90	64000,00
809,34	64000,00
809,78	64000,00
810,23	64000,00
810,67	64000,00
811,11	64000,00
811,55	64000,00
811,99	64000,00
812,44	64000,00
812,88	64000,00
813,32	64000,00
813,76	64000,00
814,20	64000,00
814,64	64000,00
815,09	64000,00
815,53	64000,00
815,97	64000,00
816,41	64000,00
816,85	64000,00
817,29	64000,00
817,74	64000,00
818,18	64000,00
818,62	64000,00
819,06	64000,00
819,50	64000,00
819,94	64000,00
820,39	64000,00
820,83	64000,00
821,27	64000,00
821,71	64000,00
822,15	64000,00
822,59	64000,00
823,03	64000,00
823,47	64000,00
823,92	64000,00
824,36	64000,00
824,80	64000,00
825,24	64000,00
825,68	64000,00
826,12	64000,00
826,56	64000,00
827,00	64000,00
827,44	64000,00
827,88	64000,00
828,33	64000,00
828,77	64000,00
829,21	64000,00
829,65	64000,00
830,09	64000,00
830,53	64000,00
830,97	64000,00
831,41	64000,00
831,85	64000,00
832,29	64000,00
832,73	64000,00
833,17	64000,00
833,61	64000,00
834,05	64000,00
834,49	64000,00
834,93	64000,00
835,37	64000,00
835,82	64000,00
836,26	64000,00
836,70	64000,00
837,14	64000,00
837,58	64000,00
838,02	64000,00
838,46	64000,00
838,90	64000,00
839,34	64000,00
839,78	64000,00
840,22	64000,00
840,66	64000,00
841,10	64000,00
841,54	64000,00
841,98	64000,00
842,42	64000,00
842,86	64000,00
843,30	64000,00
843,74	64000,00
844,18	64000,00
844,62	64000,00
845,06	64000,00
845,50	64000,00
845,94	64000,00
846,37	64000,00
846,81	64000,00
847,25	64000,00
847,69	64000,00
848,13	64000,00
848,57	64000,00
849,01	64000,00
849,45	64000,00
849,89	64000,00
850,33	64000,00
850,77	64000,00
851,21	64000,00
851,65	64000,00
852,09	64000,00
852,53	64000,00
852,97	64000,00
853,40	64000,00
853,84	64000,00
854,28	64000,00
854,72	64000,00
855,16	64000,00
855,60	64000,00
856,04	64000,00
856,48	64000,00
856,92	64000,00
857,36	64000,00
857,79	64000,00
858,23	64000,00
858,67	64000,00
859,11	64000,00
859,55	64000,00
859,99	64000,00
860,43	64000,00
860,87	64000,00
861,30	64000,00
861,74	64000,00
862,18	64000,00
862,62	64000,00
863,06	64000,00
863,50	64000,00
863,94	64000,00
864,37	64000,00
864,81	64000,00
865,25	64000,00
865,69	64000,00
866,13	64000,00
866,57	64000,00
867,00	64000,00
867,44	64000,00
867,88	64000,00
868,32	64000,00
868,76	64000,00
869,19	64000,00
869,63	64000,00
870,07	64000,00
870,51	64000,00
870,95	64000,00
871,38	64000,00
871,82	64000,00
872,26	64000,00
872,70	64000,00
873,14	64000,00
873,57	64000,00
874,01	64000,00
874,45	64000,00
874,89	64000,00
875,32	64000,00
875,76	64000,00
876,20	64000,00
876,64	64000,00
877,07	64000,00
877,51	64000,00
877,95	64000,00
878,39	64000,00
878,82	64000,00
879,26	64000,00
879,70	64000,00
880,14	64000,00
880,57	64000,00
881,01	64000,00
881,45	64000,00
881,89	64000,00
882,32	64000,00
882,76	64000,00
883,20	64000,00
883,63	64000,00
884,07	64000,00
884,51	64000,00
884,94	64000,00
885,38	64000,00
885,82	64000,00
886,26	64000,00
886,69	64000,00
887,13	64000,00
887,57	64000,00
888,00	64000,00
888,44	64000,00
888,88	64000,00
889,31	64000,00
889,75	64000,00
890,19	64000,00
890,62	64000,00
891,06	64000,00
891,50	64000,00
891,93	64000,00
892,37	64000,00
892,81	64000,00
893,24	64000,00
893,68	64000,00
894,11	64000,00
894,55	64000,00
894,99	64000,00
895,42	64000,00
895,86	64000,00
896,30	64000,00
896,73	64000,00
897,17	64000,00
897,60	64000,00
898,04	64000,00
898,48	64000,00
898,91	64000,00
899,35	64000,00
899,78	64000,00
900,22	64000,00
900,66	64000,00
901,09	64000,00
901,53	64000,00
901,96	64000,00
902,40	64000,00
902,84	64000,00
903,27	64000,00
903,71	64000,00
904,14	64000,00
904,58	64000,00
905,01	64000,00
905,45	64000,00
905,88	64000,00
906,32	64000,00
906,76	64000,00
907,19	64000,00
907,63	64000,00
908,06	64000,00
908,50	64000,00
908,93	64000,00
909,37	64000,00
909,80	64000,00
910,24	64000,00
910,67	64000,00
911,11	64000,00
911,54	64000,00
911,98	64000,00
912,41	64000,00
912,85	64000,00
913,28	64000,00
913,72	64000,00
914,15	64000,00
914,59	64000,00
915,02	64000,00
915,46	64000,00
915,89	64000,00
916,33	64000,00
916,76	64000,00
917,20	64000,00
917,63	64000,00
918,07	64000,00
918,50	64000,00
918,94	64000,00
919,37	64000,00
919,81	64000,00
920,24	64000,00
920,67	64000,00
921,11	64000,00
921,54	64000,00
921,98	64000,00
922,41	64000,00
922,85	64000,00
923,28	64000,00
923,72	64000,00
924,15	64000,00
924,58	64000,00
925,02	64000,00
925,45	64000,00
925,89	64000,00
926,32	64000,00
926,75	64000,00
927,19	64000,00
927,62	64000,00
928,06	64000,00
928,49	64000,00
928,92	64000,00
929,36	64000,00
929,79	64000,00
930,23	64000,00
930,66	64000,00
931,09	64000,00
931,53	63639,00
931,96	54503,00
932,39	48329,00
932,83	47236,00
933,26	44709,00
933,70	40831,00
934,13	36635,00
934,56	39328,00
935,00	44820,00
935,43	38841,00
935,86	37856,00
936,30	40120,00
936,73	37226,00
937,16	40868,00
937,60	45711,00
938,03	48064,00
938,46	51767,00
938,90	57115,00
939,33	61084,00
939,76	56161,00
940,19	50974,00
940,63	47911,00
941,06	44470,00
941,49	42305,00
941,93	43545,00
942,36	39903,00
942,79	34877,00
943,23	39825,00
943,66	39783,00
944,09	34271,00
944,52	37652,00
944,96	41922,00
945,39	41033,00
945,82	40092,00
946,26	41805,00
946,69	43245,00
947,12	47705,00
947,55	48886,00
947,99	44808,00
948,42	45782,00
948,85	50958,00
949,28	49532,00
949,72	44313,00
950,15	44314,00
950,58	48689,00
951,01	51288,00
951,45	48491,00
951,88	46006,00
952,31	46136,00
952,74	49961,00
953,17	55086,00
953,61	59603,00
954,04	57703,00
954,47	58208,00
954,90	60559,00
955,33	58997,00
955,77	64000,00
956,20	64000,00
956,63	61558,00
957,06	64000,00
957,49	64000,00
957,93	64000,00
958,36	64000,00
958,79	61088,00
959,22	59556,00
959,65	64000,00
960,08	64000,00
960,52	64000,00
960,95	64000,00
961,38	64000,00
961,81	64000,00
962,24	64000,00
962,67	64000,00
963,11	64000,00
963,54	64000,00
963,97	64000,00
964,40	64000,00
964,83	64000,00
965,26	64000,00
965,69	64000,00
966,13	64000,00
966,56	64000,00
966,99	64000,00
967,42	64000,00
967,85	64000,00
968,28	64000,00
968,71	64000,00
969,14	64000,00
969,57	64000,00
970,01	64000,00
970,44	64000,00
970,87	64000,00
971,30	64000,00
971,73	64000,00
972,16	64000,00
972,59	64000,00
973,02	64000,00
973,45	64000,00
973,88	64000,00
974,31	64000,00
974,74	64000,00
975,17	64000,00
975,61	64000,00
976,04	64000,00
976,47	64000,00
976,90	64000,00
977,33	64000,00
977,76	64000,00
978,19	64000,00
978,62	64000,00
979,05	64000,00
979,48	64000,00
979,91	64000,00
980,34	64000,00
980,77	64000,00
981,20	64000,00
981,63	64000,00
982,06	64000,00
982,49	64000,00
982,92	64000,00
983,35	64000,00
983,78	64000,00
984,21	64000,00
984,64	64000,00
985,07	64000,00
985,50	64000,00
985,93	64000,00
986,36	64000,00
986,79	64000,00
987,22	64000,00
987,65	64000,00
988,08	64000,00
988,51	64000,00
988,94	64000,00
989,37	64000,00
989,80	64000,00
990,23	64000,00
990,66	64000,00
991,09	64000,00
991,51	64000,00
991,94	64000,00
992,37	64000,00
992,80	64000,00
993,23	64000,00
993,66	64000,00
994,09	64000,00
994,52	64000,00
994,95	64000,00
995,38	64000,00
995,81	64000,00
996,24	64000,00
996,67	64000,00
997,09	64000,00
997,52	64000,00
997,95	64000,00
998,38	64000,00
998,81	64000,00
999,24	64000,00
999,67	64000,00
1000,10	64000,00
1000,53	64000,00
1000,95	64000,00
1001,38	64000,00
1001,81	64000,00
1002,24	64000,00
1002,67	64000,00
1003,10	64000,00
1003,53	64000,00
1003,95	64000,00
1004,38	64000,00
1004,81	64000,00
1005,24	64000,00
1005,67	64000,00
1006,10	64000,00
1006,52	64000,00
1006,95	64000,00
1007,38	64000,00
1007,81	64000,00
1008,24	64000,00
1008,67	64000,00
1009,09	64000,00
1009,52	64000,00
1009,95	64000,00
1010,38	64000,00
1010,81	64000,00
1011,23	64000,00
1011,66	64000,00
1012,09	64000,00
1012,52	64000,00
1012,95	64000,00
1013,37	64000,00
1013,80	64000,00
1014,23	64000,00
1014,66	64000,00
1015,08	64000,00
1015,51	64000,00
1015,94	64000,00
1016,37	64000,00
1016,80	64000,00
1017,22	64000,00
1017,65	64000,00
1018,08	64000,00
1018,51	64000,00
1018,93	64000,00
1019,36	64000,00
1019,79	64000,00
1020,21	64000,00
1020,64	64000,00
1021,07	64000,00
1021,50	64000,00
1021,92	64000,00
1022,35	64000,00
1022,78	64000,00
1023,21	64000,00
1023,63	64000,00
1024,06	64000,00
1024,49	64000,00
1024,91	64000,00
1025,34	64000,00
1025,77	64000,00
1026,19	64000,00
1026,62	64000,00
1027,05	64000,00
1027,47	64000,00
1027,90	64000,00
1028,33	64000,00
1028,75	64000,00
1029,18	64000,00
1029,61	64000,00
1030,03	64000,00
1030,46	64000,00
1030,89	64000,00
1031,31	64000,00
1031,74	64000,00
1032,17	64000,00
1032,59	64000,00
1033,02	64000,00
1033,45	64000,00
1033,87	64000,00
1034,30	64000,00
1034,73	64000,00
1035,15	64000,00
1035,58	64000,00
1036,00	64000,00
1036,43	64000,00
1036,86	64000,00
1037,28	64000,00
1037,71	64000,00
1038,13	64000,00
1038,56	64000,00
1038,99	64000,00
1039,41	64000,00
1039,84	64000,00
1040,26	64000,00
1040,69	64000,00
1041,11	64000,00
1041,54	64000,00
1041,97	64000,00
1042,39	64000,00
1042,82	64000,00
1043,24	64000,00
1043,67	64000,00
1044,09	64000,00
1044,52	64000,00
1044,95	64000,00
1045,37	64000,00
1045,80	64000,00
1046,22	64000,00
1046,65	63982,00
1047,07	62560,00
1047,50	62037,00
1047,92	61583,00
1048,35	60633,00
1048,77	60605,00
1049,20	60024,00
1049,62	59964,00
1050,05	59440,00
1050,47	59301,00
1050,90	59424,00
1051,32	59350,00
1051,75	59231,00
1052,17	58700,00
1052,60	58198,00
1053,02	57800,00
1053,45	57085,00
1053,87	57121,00
1054,30	55960,00
1054,72	55551,00
1055,15	54866,00
1055,57	54096,00
1056,00	53379,00
1056,42	52944,00
1056,85	51876,00
1057,27	51119,00
1057,70	50102,00
1058,12	49888,00
1058,54	48181,00
1058,97	47677,00
1059,39	47090,00
1059,82	46240,00
1060,24	45548,00
1060,67	44997,00
1061,09	44865,00
1061,51	44368,00
1061,94	43938,00
1062,36	43990,00
1062,79	43714,00
1063,21	43273,00
1063,64	42992,00
1064,06	42646,00
1064,48	42581,00
1064,91	42417,00
1065,33	41843,00
1065,76	41154,00
1066,18	40853,00
1066,60	40996,00
1067,03	40260,00
1067,45	39798,00
1067,87	39297,00
1068,30	38327,00
1068,72	38368,00
1069,15	37510,00
1069,57	36941,00
1069,99	36261,00
1070,42	36407,00
1070,84	36018,00
1071,26	35529,00
1071,69	35075,00
1072,11	34929,00
1072,53	34022,00
1072,96	33901,00
1073,38	33541,00
1073,80	33881,00
1074,23	33140,00
1074,65	33059,00
1075,07	33142,00
1075,50	32924,00
1075,92	33127,00
1076,34	32641,00
1076,77	32312,00
1077,19	32243,00
1077,61	32341,00
1078,04	31616,00
1078,46	31724,00
1078,88	31574,00
1079,30	30269,00
1079,73	30317,00
1080,15	29533,00
1080,57	29251,00
1081,00	28872,00
1081,42	28307,00
1081,84	28142,00
1082,26	27842,00
1082,69	27288,00
1083,11	27083,00
1083,53	26724,00
1083,95	26501,00
1084,38	26560,00
1084,80	26122,00
1085,22	25645,00
1085,64	26008,00
1086,07	25294,00
1086,49	25206,00
1086,91	25124,00
1087,33	24908,00
1087,76	25225,00
1088,18	33322,00
1088,60	24966,00
1089,02	24256,00
1089,45	24286,00
1089,87	23867,00
1090,29	23956,00
1090,71	23455,00
1091,13	22912,00
1091,56	22456,00
1091,98	21737,00
1092,40	21330,00
1092,82	21082,00
1093,24	20876,00
1093,66	20660,00
1094,09	20078,00
1094,51	19955,00
1094,93	19812,00
1095,35	19373,00
1095,77	19077,00
1096,19	19117,00
1096,62	19096,00
1097,04	18417,00
1097,46	18352,00
1097,88	17948,00
1098,30	18318,00
1098,72	17717,00
1099,15	17589,00
1099,57	17343,00
1099,99	17207,00
1100,41	16807,00
1100,83	16713,00
1101,25	16169,00
1101,67	15957,00
1102,09	15432,00
1102,52	15279,00
1102,94	15142,00
1103,36	14874,00
1103,78	14751,00
1104,20	14470,00
1104,62	14868,00
1105,04	13844,00
1105,46	14156,00
1105,88	13906,00
1106,30	13746,00
1106,73	13909,00
1107,15	13282,00
1107,57	13079,00
1107,99	13317,00
1108,41	12590,00
1108,83	12644,00
1109,25	12568,00
1109,67	12340,00
1110,09	11534,00
1110,51	11554,00
1110,93	11279,00
1111,35	11329,00
1111,77	11047,00
1112,19	10911,00
1112,61	10433,00
1113,03	10486,00
1113,45	10199,00
1113,87	9997,00
1114,29	9925,00
1114,71	9759,00
1115,13	9277,00
1115,55	9154,00
1115,98	8872,00
1116,40	8963,00
1116,82	8572,00
1117,24	8232,00
1117,66	7852,00
1118,08	2064,00
1118,50	2197,00
1118,91	2197,00
1119,33	2193,00
>>>>>End Processed Spectral Data<<<<<
